Folder: pypi-mirror-206/packages/pyspmp/pyspmp-0.1.6-py3-none-any.whl/pyspmp/resultado_busca

Note: README.md
# PyPI code 206

This repo contains 40000 packages uploaded to PyPI between 
2023-05-01 00:36 and 2023-05-05 23:33.

The repo is 59% (23991/40000) complete.

Package contents can be found [in the code branch](https://github.com/pypi-data/pypi-mirror-206/tree/code/packages).

A browsable package list for all repositories [all packages here](https://pypi-data.github.io/website/repositories/pypi-mirror-206).

File: df_sp_TGA_P62.csv
,Data,Point In,TAGs Out,Total TAGs
0,01/01/2021,0.961296,6,116
1,02/01/2021,0.967122,4,116
2,03/01/2021,0.965398,5,116
3,04/01/2021,0.971463,5,116
4,05/01/2021,0.607491,110,116
5,06/01/2021,0.377883,73,116
6,07/01/2021,0.37931,72,116
7,08/01/2021,0.382521,72,116
8,09/01/2021,0.379905,72,116
9,10/01/2021,0.379905,72,116
10,11/01/2021,0.386683,83,116
11,12/01/2021,0.387931,71,116
12,13/01/2021,0.387515,75,116
13,14/01/2021,0.387931,71,116
14,15/01/2021,0.287693,105,116
15,16/01/2021,0.185018,105,116
16,17/01/2021,0.38692,72,116
17,18/01/2021,0.387574,72,116
18,19/01/2021,0.711237,77,116
19,20/01/2021,0.96742,10,116
20,21/01/2021,0.966885,5,116
21,22/01/2021,0.970036,14,116
22,23/01/2021,0.97063,8,116
23,24/01/2021,0.974078,4,116
24,25/01/2021,0.969084,7,116
25,26/01/2021,0.933888,84,116
26,27/01/2021,0.96736,6,116
27,28/01/2021,0.786147,90,116
28,29/01/2021,0.965042,14,116
29,30/01/2021,0.971403,6,116
30,31/01/2021,0.973841,4,116
31,01/02/2021,0.974138,3,116
32,02/02/2021,0.964507,5,116
33,03/02/2021,0.965517,4,116
34,04/02/2021,0.965458,5,116
35,05/02/2021,0.965517,4,116
36,06/02/2021,0.973127,7,116
37,07/02/2021,0.971581,5,116
38,08/02/2021,0.975446,5,116
39,09/02/2021,0.976694,3,116
40,10/02/2021,0.973603,4,116
41,11/02/2021,0.97283,4,116
42,12/02/2021,0.971819,4,116
43,13/02/2021,0.973365,4,116
44,14/02/2021,0.971938,5,116
45,15/02/2021,0.965696,4,116
46,16/02/2021,0.965517,4,116
47,17/02/2021,0.971998,4,116
48,18/02/2021,0.966885,4,116
49,19/02/2021,0.964625,13,116
50,20/02/2021,0.965517,4,116
51,21/02/2021,0.965458,5,116
52,22/02/2021,0.965517,5,116
53,23/02/2021,0.935791,18,116
54,24/02/2021,0.905351,16,116
55,25/02/2021,0.931629,8,116
56,26/02/2021,0.939655,7,116
57,27/02/2021,0.939655,7,116
58,28/02/2021,0.881451,57,116
59,01/03/2021,0.490844,61,116
60,02/03/2021,0.470868,62,116
61,03/03/2021,0.46849,62,116
62,04/03/2021,0.639893,62,116
63,05/03/2021,0.911653,24,116
64,06/03/2021,0.939655,7,116
65,07/03/2021,0.939001,8,116
66,08/03/2021,0.926635,54,116
67,09/03/2021,0.877705,57,116
68,10/03/2021,0.946968,8,116
69,11/03/2021,0.943163,10,116
70,12/03/2021,0.947741,7,116
71,13/03/2021,0.945006,7,116
72,14/03/2021,0.937574,17,116
73,15/03/2021,0.944293,8,116
74,16/03/2021,0.941141,8,116
75,17/03/2021,0.948276,6,116
76,18/03/2021,0.94786,13,116
77,19/03/2021,0.699168,58,116
78,20/03/2021,0.209394,105,116
79,21/03/2021,0.0948276,105,116
80,22/03/2021,0.114566,108,116
81,23/03/2021,0.126219,104,116
82,24/03/2021,0.239358,106,116
83,25/03/2021,0.368609,89,116
84,26/03/2021,0.192212,108,116
85,27/03/2021,0.355172,102,116
86,28/03/2021,0.962188,11,116
87,29/03/2021,0.965517,4,116
88,30/03/2021,0.96522,5,116
89,31/03/2021,0.940785,12,116
90,01/04/2021,0.941558,18,116
91,02/04/2021,0.964804,16,116
92,03/04/2021,0.965458,5,116
93,04/04/2021,0.947384,19,116
94,05/04/2021,0.913793,10,116
95,06/04/2021,0.913793,10,116
96,07/04/2021,0.913793,10,116
97,08/04/2021,0.925803,10,116
98,09/04/2021,0.960642,5,116
99,10/04/2021,0.963912,5,116
100,11/04/2021,0.625446,93,116
101,12/04/2021,0.566171,109,116
102,13/04/2021,0.964863,5,116
103,14/04/2021,0.963971,5,116
104,15/04/2021,0.963912,5,116
105,16/04/2021,0.963674,5,116
106,17/04/2021,0.965517,4,116
107,18/04/2021,0.965517,4,116
108,19/04/2021,0.965517,4,116
109,20/04/2021,0.965517,4,116
110,21/04/2021,0.963615,6,116
111,22/04/2021,0.964209,6,116
112,23/04/2021,0.965517,4,116
113,24/04/2021,0.965517,4,116
114,25/04/2021,0.965517,4,116
115,26/04/2021,0.965517,4,116
116,27/04/2021,0.939774,13,116
117,28/04/2021,0.922414,9,116
118,29/04/2021,0.458502,93,116
119,30/04/2021,0.473603,101,116
120,01/05/2021,0.578181,112,116
121,02/05/2021,0.112069,103,116
122,03/05/2021,0.376873,105,116
123,04/05/2021,0.965517,4,116
124,05/05/2021,0.965398,5,116
125,06/05/2021,0.96201,11,116
126,07/05/2021,0.810048,105,116
127,08/05/2021,0.523543,105,116
128,09/05/2021,0.946968,105,116
129,10/05/2021,0.962069,7,116
130,11/05/2021,0.950773,106,116
131,12/05/2021,0.95654,10,116
132,13/05/2021,0.896314,106,116
133,14/05/2021,0.948276,6,116
134,15/05/2021,0.944649,89,116
135,16/05/2021,0.965517,4,116
136,17/05/2021,0.965458,5,116
137,18/05/2021,0.852616,105,116
138,19/05/2021,0.965517,4,116
139,20/05/2021,0.963258,19,116
140,21/05/2021,0.889774,85,116
141,22/05/2021,0.413674,93,116
142,23/05/2021,0.242747,94,116
143,24/05/2021,0.209037,100,116
144,25/05/2021,0.615517,98,116
145,26/05/2021,0.972235,21,116
146,27/05/2021,0.965874,9,116
147,28/05/2021,0.965339,13,116
148,29/05/2021,0.963139,23,116
149,30/05/2021,0.962307,23,116
150,31/05/2021,0.96302,24,116
151,01/06/2021,0.958621,24,116
152,02/06/2021,0.965517,23,116
153,03/06/2021,0.962069,18,116
154,04/06/2021,0.960464,22,116
155,05/06/2021,0.95654,36,116
156,06/06/2021,0.960345,18,116
157,07/06/2021,0.968847,21,116
158,08/06/2021,0.937693,37,116
159,09/06/2021,0.958918,27,116
160,10/06/2021,0.963971,9,116
161,11/06/2021,0.962961,20,116
162,12/06/2021,0.963853,11,116
163,13/06/2021,0.960999,6,116
164,14/06/2021,0.967717,6,116
165,15/06/2021,0.966171,5,116
166,16/06/2021,0.966528,5,116
167,17/06/2021,0.964685,5,116
168,18/06/2021,0.964923,5,116
169,19/06/2021,0.913496,86,116
170,20/06/2021,0.351427,112,116
171,21/06/2021,0.135493,108,116
172,22/06/2021,0.734126,108,116
173,23/06/2021,0.519382,100,116
174,24/06/2021,0.969501,6,116
175,25/06/2021,0.964566,20,116
176,26/06/2021,0.959988,55,116
177,27/06/2021,0.231807,95,116
178,28/06/2021,0.401546,103,116
179,29/06/2021,0.278597,98,116
180,30/06/2021,0.119322,109,116
181,01/07/2021,0.0603448,109,116
182,02/07/2021,0.180321,110,116
183,03/07/2021,0.884304,27,116
184,04/07/2021,0.981451,15,116
185,05/07/2021,0.980202,22,116
186,06/07/2021,0.980737,9,116
187,07/07/2021,0.97497,3,116
188,08/07/2021,0.973841,8,116
189,09/07/2021,0.974138,3,116
190,10/07/2021,0.974316,3,116
191,11/07/2021,0.981153,3,116
192,12/07/2021,0.979727,5,116
193,13/07/2021,0.979013,18,116
194,14/07/2021,0.853864,94,116
195,15/07/2021,0.979429,14,116
196,16/07/2021,0.979191,22,116
197,17/07/2021,0.981867,13,116
198,18/07/2021,0.982283,10,116
199,19/07/2021,0.59786,90,116
200,20/07/2021,0.179073,109,116
201,21/07/2021,0.158561,106,116
202,22/07/2021,0.273306,106,116
203,23/07/2021,0.139417,106,116
204,24/07/2021,0.121581,106,116
205,25/07/2021,0.109691,106,116
206,26/07/2021,0.18365,97,116
207,27/07/2021,0.188288,96,116
208,28/07/2021,0.423306,98,116
209,29/07/2021,0.926932,26,116
210,30/07/2021,0.962128,27,116
211,31/07/2021,0.982342,5,116
212,01/08/2021,0.978835,23,116
213,02/08/2021,0.973365,25,116
214,03/08/2021,0.426932,97,116
215,04/08/2021,0.326159,109,116
216,05/08/2021,0.966528,15,116
217,06/08/2021,0.971522,5,116
218,07/08/2021,0.971106,6,116
219,08/08/2021,0.974138,3,116
220,09/08/2021,0.974078,4,116
221,10/08/2021,0.973662,19,116
222,11/08/2021,0.935493,15,116
223,12/08/2021,0.771641,93,116
224,13/08/2021,0.96629,15,116
225,14/08/2021,0.958799,28,116
226,15/08/2021,0.974019,5,116
227,16/08/2021,0.968133,105,116
228,17/08/2021,0.974138,3,116
229,18/08/2021,0.972889,20,116
230,19/08/2021,0.964625,21,116
231,20/08/2021,0.96849,4,116
232,21/08/2021,0.967955,23,116
233,22/08/2021,0.972592,22,116
234,23/08/2021,0.974019,20,116
235,24/08/2021,0.97497,18,116
236,25/08/2021,0.979013,19,116
237,26/08/2021,0.980202,20,116
238,27/08/2021,0.982283,21,116
239,28/08/2021,0.98371,17,116
240,29/08/2021,0.983353,8,116
241,30/08/2021,0.982461,11,116
242,31/08/2021,0.975089,22,116
243,01/09/2021,0.891558,14,116
244,02/09/2021,0.885315,15,116
245,03/09/2021,0.671641,96,116
246,04/09/2021,0.193579,106,116
247,05/09/2021,0.121106,109,116
248,06/09/2021,0.0775862,110,116
249,07/09/2021,0.0695006,110,116
250,08/09/2021,0.0865636,106,116
251,09/09/2021,0.0862069,106,116
252,10/09/2021,0.089239,106,116
253,11/09/2021,0.1022,106,116
254,12/09/2021,0.115458,103,116
255,13/09/2021,0.110107,105,116
256,14/09/2021,0.110107,104,116
257,15/09/2021,0.123662,103,116
258,16/09/2021,0.12931,101,116
259,17/09/2021,0.117955,103,116
260,18/09/2021,0.106124,104,116
261,19/09/2021,0.107432,104,116
262,20/09/2021,0.103864,105,116
263,21/09/2021,0.109869,104,116
264,22/09/2021,0.106956,104,116
265,23/09/2021,0.110642,105,116
266,24/09/2021,0.104875,104,116
267,25/09/2021,0.103448,104,116
268,26/09/2021,0.103448,104,116
269,27/09/2021,0.103627,104,116
270,28/09/2021,0.204697,108,116
271,29/09/2021,0.981986,14,116
272,30/09/2021,0.99025,8,116
273,01/10/2021,0.991379,1,116
274,02/10/2021,0.985196,2,116
275,03/10/2021,0.984602,2,116
276,04/10/2021,0.987574,3,116
277,05/10/2021,0.98912,2,116